Load (N)	Extension (mm)
	
	
-2.6020	-1.4432
-2.5978	-1.4431
-2.5937	-1.4431
-2.5895	-1.4431
-2.5853	-1.4431
-2.5812	-1.4431
-2.5770	-1.4431
-2.5728	-1.4431
-2.5687	-1.4430
-2.5645	-1.4430
-2.5603	-1.4416
-2.0385	-1.3990
-1.2842	-1.3405
-0.92210	-1.2706
-0.55998	-1.1984
-0.19786	-1.1209
0.16427	-1.0430
0.52639	-0.96768
0.88851	-0.89026
1.2506	-0.81280
1.6128	-0.73534
1.9749	-0.65788
2.3370	-0.58041
2.6991	-0.50295
3.0612	-0.42589
3.4234	-0.34883
3.7855	-0.27176
4.1476	-0.19470
4.5097	-0.11758
4.8718	-0.040097
5.2340	0.033240
3.7309	0.0036623
4.4978	0.015417
5.0176	0.033102
5.2045	0.038639
5.3914	0.046700
4.0597	-0.013620
2.2709	-0.087343
1.8671	-0.15639
1.4633	-0.23049
1.0595	-0.30458
0.65570	-0.37884
0.25189	-0.45516
-0.15191	-0.53147
-0.55572	-0.60899
-0.95953	-0.68650
-1.3633	-0.75899
-1.7671	-0.83527
-2.1709	-0.91155
-2.5748	-0.98784
-2.9786	-1.0641
-3.3824	-1.1404
-3.7862	-1.2167
-4.1900	-1.2930
-4.5938	-1.3693
-4.9976	-1.4478
-5.4014	-1.5262
-5.8052	-1.6047
-6.2090	-1.6818
-6.6128	-1.7586
-7.0166	-1.8353
-7.4204	-1.9120
-7.8242	-1.9888
-8.2280	-2.0655
-8.6318	-2.1422
-9.0356	-2.2190
-9.4395	-2.2957
-9.8433	-2.3725
-10.247	-2.4492
-10.651	-2.5259
-11.055	-2.6027
-11.458	-2.6794
-11.862	-2.7562
-12.266	-2.8329
-12.670	-2.9096
-13.074	-2.9864
-13.478	-3.0631
-13.881	-3.1398
-14.285	-3.2166
-14.689	-3.2933
-15.093	-3.3701
-15.497	-3.4468
-15.900	-3.5235
-16.304	-3.6003
-16.708	-3.6770
-17.112	-3.7538
-17.516	-3.8305
-17.919	-3.9072
-18.323	-3.9840
-18.727	-4.0607
-19.131	-4.1375
-19.535	-4.2142
-19.938	-4.2909
-20.337	-4.3677
-20.730	-4.4444
-21.123	-4.5211
-21.517	-4.5979
-21.910	-4.6746
-22.303	-4.7514
-22.696	-4.8281
-23.089	-4.9048
-23.482	-4.9816
-23.875	-5.0583
-24.268	-5.1351
-24.661	-5.2118
-25.054	-5.2885
-25.447	-5.3653
-25.840	-5.4420
-26.234	-5.5188
-26.627	-5.5955
-27.020	-5.6722
-27.413	-5.7490
-27.806	-5.8257
-28.199	-5.9024
-28.592	-5.9792
-28.985	-6.0559
-29.378	-6.1327
-29.771	-6.2094
-30.164	-6.2856
-30.557	-6.3611
-30.950	-6.4375
-31.344	-6.5141
-31.737	-6.5908
-32.130	-6.6674
-32.523	-6.7440
-32.916	-6.8207
-33.309	-6.8973
-33.702	-6.9739
-34.095	-7.0506
-34.488	-7.1272
-34.881	-7.2039
-35.274	-7.2805
-35.667	-7.3571
-36.083	-7.4338
-36.504	-7.5104
-36.926	-7.5870
-37.347	-7.6637
-37.769	-7.7403
-38.190	-7.8169
-38.608	-7.8936
-39.024	-7.9702
-39.441	-8.0468
-39.857	-8.1235
-40.274	-8.2001
-40.691	-8.2767
-41.107	-8.3534
-41.468	-8.4301
-41.614	-8.5068
-41.769	-8.5835
-42.163	-8.6602
-42.557	-8.7369
-42.951	-8.8135
-43.345	-8.8902
-43.739	-8.9669
-44.133	-9.0436
-44.527	-9.1203
-44.921	-9.1970
-45.315	-9.2737
-45.709	-9.3504
-46.103	-9.4270
-46.497	-9.5037
-46.891	-9.5804
-47.285	-9.6571
-47.679	-9.7338
-48.073	-9.8105
-48.467	-9.8872
-48.861	-9.9638
-49.255	-10.041
-49.649	-10.117
-50.043	-10.194
-50.437	-10.271
-50.831	-10.347
-51.225	-10.424
-51.619	-10.501
-52.013	-10.577
-52.407	-10.654
-52.801	-10.731
-53.195	-10.807
-53.589	-10.884
-53.983	-10.961
-54.377	-11.037
-54.771	-11.114
-55.165	-11.191
-55.559	-11.268
-55.953	-11.344
-56.348	-11.421
-56.742	-11.498
-57.136	-11.575
-57.530	-11.651
-57.928	-11.728
-58.338	-11.805
-58.748	-11.881
-59.158	-11.958
-59.568	-12.035
-59.978	-12.112
-60.388	-12.188
-60.798	-12.265
-61.208	-12.342
-61.618	-12.418
-62.028	-12.494
-62.438	-12.570
-62.848	-12.647
-63.248	-12.723
-63.616	-12.800
-63.985	-12.877
-64.354	-12.953
-64.723	-13.030
-65.092	-13.107
-65.461	-13.183
-65.829	-13.260
-66.198	-13.337
-66.567	-13.413
-66.936	-13.490
-67.324	-13.567
-67.744	-13.643
-68.164	-13.720
-68.584	-13.797
-69.005	-13.873
-69.425	-13.950
-69.845	-14.027
-70.265	-14.103
-70.685	-14.180
-71.105	-14.257
-71.525	-14.333
-71.945	-14.410
-72.366	-14.487
-72.786	-14.563
-73.206	-14.640
-73.626	-14.717
-74.046	-14.793
-74.466	-14.870
-74.886	-14.947
-75.307	-15.023
-75.727	-15.100
-76.147	-15.177
-76.567	-15.253
-76.987	-15.330
-77.407	-15.407
-77.827	-15.483
-78.247	-15.560
-78.668	-15.636
-79.082	-15.713
-79.454	-15.790
-79.827	-15.866
-80.199	-15.943
-80.571	-16.020
-80.944	-16.096
-81.316	-16.173
-81.689	-16.250
-82.061	-16.326
-82.123	-16.403
-83.237	-16.480
-83.639	-16.556
-84.425	-16.633
-84.192	-16.710
-85.516	-16.786
-85.689	-16.863
-85.856	-16.940
-86.120	-17.016
-86.642	-17.093
-87.164	-17.170
-87.687	-17.246
-88.209	-17.323
-88.731	-17.400
-89.253	-17.476
-89.775	-17.553
-90.297	-17.629
-90.819	-17.706
-91.341	-17.783
-91.863	-17.859
-92.385	-17.936
-92.907	-18.013
-93.429	-18.089
-93.951	-18.166
-94.474	-18.243
-94.996	-18.319
-95.518	-18.396
-96.040	-18.473
-96.562	-18.549
-97.084	-18.626
-97.606	-18.703
-98.128	-18.779
-98.650	-18.856
-99.172	-18.933
-99.694	-19.009
-100.22	-19.086
-100.74	-19.163
-101.26	-19.239
-101.78	-19.316
-102.30	-19.392
-102.83	-19.469
-103.35	-19.546
-103.87	-19.622
-104.39	-19.699
-104.92	-19.776
-105.44	-19.852
-106.12	-19.929
-106.84	-20.006
-107.57	-20.082
-108.29	-20.159
-109.01	-20.236
-109.62	-20.312
-110.22	-20.389
-110.82	-20.466
-111.41	-20.542
-112.01	-20.619
-112.61	-20.696
-113.20	-20.772
-113.80	-20.849
-114.39	-20.926
-114.99	-21.002
-115.59	-21.079
-116.18	-21.156
-116.78	-21.232
-117.38	-21.309
-117.97	-21.385
-118.71	-21.462
-119.51	-21.539
-120.31	-21.615
-121.10	-21.692
-121.90	-21.769
-122.70	-21.845
-123.50	-21.922
-124.30	-21.999
-125.10	-22.075
-125.90	-22.152
-126.72	-22.229
-127.59	-22.305
-128.47	-22.382
-129.34	-22.458
-130.22	-22.535
-131.09	-22.611
-131.96	-22.688
-132.84	-22.764
-133.71	-22.841
-134.59	-22.918
-135.46	-22.994
-136.33	-23.071
-137.21	-23.147
-138.08	-23.224
-138.95	-23.300
-139.83	-23.377
-140.70	-23.453
-141.58	-23.530
-142.45	-23.607
-143.32	-23.683
-144.20	-23.760
-145.07	-23.836
-145.95	-23.913
-148.68	-23.989
-155.89	-24.066
-166.62	-24.142
-180.69	-24.219
-195.48	-24.295
-210.03	-24.372
-222.49	-24.449
-234.94	-24.525
-247.39	-24.601
-259.84	-24.677
-281.33	-24.752
-305.73	-24.828
-339.85	-24.904
-380.92	-24.980
-422.00	-25.056
-463.07	-25.131
-504.14	-25.197
-527.28	-25.213
-530.99	-25.216
-527.23	-25.218
-523.48	-25.213
-500.70	-25.162
-441.96	-25.090
-383.21	-25.016
-326.63	-24.941
-293.15	-24.866
-259.68	-24.792
-226.21	-24.717
-192.74	-24.642
-178.57	-24.568
-171.23	-24.493
-163.89	-24.418
-156.55	-24.344
-149.20	-24.267
-141.86	-24.191
-134.52	-24.114
-127.18	-24.037
-119.84	-23.961
-112.49	-23.884
-105.15	-23.807
-103.90	-23.731
-103.53	-23.654
-103.17	-23.577
-102.81	-23.501
-102.45	-23.424
-102.09	-23.348
-101.73	-23.271
-101.37	-23.194
-101.00	-23.118
-100.64	-23.041
-100.28	-22.964
-99.919	-22.888
-99.558	-22.811
-99.196	-22.734
-98.835	-22.658
-98.473	-22.581
-98.112	-22.504
-97.750	-22.428
-97.389	-22.351
-97.027	-22.275
-96.666	-22.198
-96.304	-22.121
-95.943	-22.045
-95.581	-21.968
-95.220	-21.891
-94.858	-21.815
-94.497	-21.738
-94.135	-21.661
-93.774	-21.585
-93.412	-21.508
-93.051	-21.431
-92.689	-21.355
-92.328	-21.278
-91.966	-21.202
-91.605	-21.125
-91.243	-21.048
-90.882	-20.972
-90.520	-20.895
-90.159	-20.818
-89.797	-20.742
-89.436	-20.665
-89.074	-20.588
-88.713	-20.512
-88.351	-20.435
-87.990	-20.358
-87.628	-20.282
-87.267	-20.205
-86.905	-20.129
-86.544	-20.052
-86.182	-19.975
-85.821	-19.899
-85.459	-19.822
-85.098	-19.745
-84.736	-19.669
-84.375	-19.592
-84.013	-19.515
-83.652	-19.439
-83.290	-19.362
-82.929	-19.286
-82.567	-19.209
-82.206	-19.132
-81.844	-19.056
-81.483	-18.979
-81.121	-18.902
-80.760	-18.826
-80.398	-18.749
-80.037	-18.672
-79.675	-18.596
-82.264	-18.519
-82.805	-18.442
-82.368	-18.366
-81.931	-18.289
-81.493	-18.213
-81.056	-18.136
-80.618	-18.059
-80.181	-17.982
-79.743	-17.905
-79.306	-17.828
-78.868	-17.751
-78.431	-17.674
-77.993	-17.598
-77.556	-17.521
-76.685	-17.444
-76.419	-17.368
-75.980	-17.291
-75.396	-17.214
-75.019	-17.138
-74.642	-17.061
-74.265	-16.984
-73.888	-16.908
-73.511	-16.831
-73.134	-16.754
-72.757	-16.678
-72.381	-16.601
-72.004	-16.524
-71.627	-16.448
-71.250	-16.371
-70.873	-16.294
-70.496	-16.218
-70.119	-16.141
-69.742	-16.064
-69.365	-15.988
-68.988	-15.911
-68.612	-15.834
-68.235	-15.758
-67.858	-15.681
-67.481	-15.604
-67.104	-15.528
-66.727	-15.451
-66.350	-15.374
-65.973	-15.298
-65.596	-15.221
-65.220	-15.144
-64.843	-15.068
-64.466	-14.991
-64.089	-14.915
-63.712	-14.838
-63.335	-14.761
-62.958	-14.685
-62.581	-14.608
-62.204	-14.531
-61.827	-14.455
-61.451	-14.378
-61.074	-14.301
-60.711	-14.225
-60.367	-14.148
-60.023	-14.071
-59.678	-13.995
-59.334	-13.918
-58.990	-13.841
-58.645	-13.765
-58.301	-13.688
-57.957	-13.611
-57.612	-13.535
-57.268	-13.458
-56.924	-13.381
-56.579	-13.305
-56.235	-13.228
-55.891	-13.151
-55.546	-13.075
-55.202	-12.998
-54.858	-12.921
-54.513	-12.845
-54.169	-12.768
-53.825	-12.691
-53.480	-12.615
-53.136	-12.538
-52.792	-12.461
-52.447	-12.385
-52.101	-12.308
-51.754	-12.231
-51.406	-12.155
-51.059	-12.078
-50.711	-12.001
-50.363	-11.925
-50.016	-11.848
-49.668	-11.771
-49.321	-11.695
-48.973	-11.618
-48.626	-11.541
-48.278	-11.465
-47.858	-11.388
-47.364	-11.311
-46.871	-11.235
-46.377	-11.157
-45.997	-11.078
-45.667	-11.002
-45.337	-10.926
-45.007	-10.851
-44.678	-10.774
-44.348	-10.698
-44.018	-10.621
-43.688	-10.544
-43.358	-10.468
-43.029	-10.391
-42.699	-10.314
-42.369	-10.238
-41.823	-10.161
-41.201	-10.084
-40.758	-10.008
-40.452	-9.9310
-40.147	-9.8544
-39.842	-9.7777
-39.536	-9.7010
-39.231	-9.6244
-38.926	-9.5477
-38.620	-9.4711
-38.315	-9.3944
-38.010	-9.3177
-37.704	-9.2411
-37.336	-9.1644
-36.941	-9.0878
-36.545	-9.0111
-36.150	-8.9344
-35.754	-8.8578
-35.358	-8.7811
-34.963	-8.7045
-34.567	-8.6278
-34.172	-8.5511
-33.786	-8.4745
-33.411	-8.3978
-33.036	-8.3212
-32.661	-8.2445
-32.286	-8.1678
-31.912	-8.0912
-31.537	-8.0145
-31.162	-7.9379
-30.787	-7.8612
-30.412	-7.7845
-30.037	-7.7079
-29.662	-7.6312
-29.288	-7.5545
-28.913	-7.4779
-28.538	-7.4012
-28.163	-7.3246
-27.788	-7.2479
-27.408	-7.1712
-27.023	-7.0946
-26.639	-7.0179
-26.255	-6.9413
-25.871	-6.8646
-25.487	-6.7879
-25.103	-6.7113
-24.719	-6.6346
-24.335	-6.5580
-23.951	-6.4813
-23.567	-6.4046
-23.183	-6.3280
-22.799	-6.2513
-22.415	-6.1746
-22.110	-6.0973
-21.887	-6.0199
-21.664	-5.9432
-21.353	-5.8665
-21.018	-5.7899
-20.682	-5.7132
-20.346	-5.6366
-20.010	-5.5599
-19.674	-5.4833
-19.338	-5.4066
-19.003	-5.3300
-18.667	-5.2533
-18.331	-5.1766
-17.995	-5.1000
-17.659	-5.0233
-17.323	-4.9467
-16.987	-4.8700
-16.624	-4.7934
-16.245	-4.7167
-15.866	-4.6401
-15.487	-4.5634
-15.108	-4.4868
-14.729	-4.4101
-14.350	-4.3335
-13.971	-4.2568
-13.592	-4.1801
-13.213	-4.1035
-12.834	-4.0268
-12.479	-3.9502
-12.132	-3.8735
-11.784	-3.7969
-11.436	-3.7202
-11.089	-3.6436
-10.741	-3.5669
-10.394	-3.4903
-10.046	-3.4136
-9.6987	-3.3369
-9.3512	-3.2603
-9.0036	-3.1836
-8.6560	-3.1070
-8.3085	-3.0303
-7.9609	-2.9537
-7.6134	-2.8770
-7.2658	-2.8004
-6.9183	-2.7237
-6.5707	-2.6471
-6.2232	-2.5704
-5.8756	-2.4938
-5.5280	-2.4171
-5.1805	-2.3404
-4.8329	-2.2638
-4.4854	-2.1871
-4.1378	-2.1105
-3.7903	-2.0338
-3.4427	-1.9572
-3.0951	-1.8805
-2.7476	-1.8039
-2.4000	-1.7273
-2.0525	-1.6507
-1.7049	-1.5742
-1.3574	-1.4976
-1.0098	-1.4210
-0.66225	-1.3444
-0.31470	-1.2679
0.032857	-1.1913
0.38041	-1.1147
0.74553	-1.0381
1.1167	-0.96160
1.4879	-0.88506
1.8590	-0.80852
2.2302	-0.73197
2.6013	-0.65543
2.9725	-0.57889
3.3437	-0.50234
3.7148	-0.42580
4.0860	-0.34925
4.4572	-0.27271
4.8283	-0.19617
5.1995	-0.11962
5.5706	-0.043081
5.9418	0.033462
6.3130	0.11001
6.6841	0.18655
7.0553	0.26309
7.4265	0.33964
7.7976	0.41618
8.1688	0.49272
8.5400	0.56927
8.9111	0.64581
9.2823	0.72248
9.6534	0.79916
10.025	0.87584
10.396	0.95252
10.767	1.0292
11.138	1.1059
11.509	1.1826
11.880	1.2593
12.252	1.3359
12.623	1.4126
12.994	1.4893
13.365	1.5660
13.736	1.6427
14.107	1.7193
14.479	1.7960
14.850	1.8727
15.221	1.9494
15.592	2.0261
15.963	2.1027
16.334	2.1794
16.706	2.2561
17.077	2.3328
17.448	2.4095
17.819	2.4862
18.190	2.5628
18.561	2.6395
18.940	2.7162
19.335	2.7929
19.731	2.8696
20.127	2.9462
20.522	3.0229
20.918	3.0996
21.314	3.1763
21.709	3.2530
22.105	3.3296
22.501	3.4063
22.896	3.4830
23.292	3.5597
23.687	3.6364
24.083	3.7131
24.479	3.7897
24.874	3.8664
25.270	3.9431
25.666	4.0198
26.061	4.0965
26.457	4.1731
26.852	4.2498
27.248	4.3265
27.644	4.4032
28.039	4.4799
28.421	4.5565
28.782	4.6332
29.142	4.7099
29.502	4.7866
29.863	4.8633
30.223	4.9400
30.583	5.0166
30.944	5.0933
31.304	5.1700
31.664	5.2467
32.025	5.3234
32.385	5.4000
32.745	5.4767
33.106	5.5534
33.466	5.6301
33.826	5.7068
34.187	5.7835
34.547	5.8601
34.907	5.9368
35.268	6.0135
35.628	6.0902
35.988	6.1669
36.370	6.2435
36.917	6.3202
37.464	6.3969
38.011	6.4736
38.558	6.5503
39.059	6.6270
39.399	6.7036
39.738	6.7803
40.078	6.8570
40.418	6.9337
40.757	6.9844
41.097	7.0798
41.437	7.1716
41.828	7.2471
42.251	7.3232
42.674	7.3993
43.098	7.4754
43.521	7.5515
43.944	7.6276
44.368	7.7037
44.791	7.7798
45.214	7.8559
45.637	7.9320
46.061	8.0081
46.484	8.0842
46.907	8.1603
47.331	8.2364
47.754	8.3125
48.177	8.3889
48.600	8.4655
49.051	8.5422
49.511	8.6188
49.970	8.6955
50.429	8.7721
50.888	8.8488
51.331	8.9255
51.741	9.0021
52.150	9.0788
52.560	9.1554
52.970	9.2321
53.380	9.3087
53.790	9.3854
54.200	9.4620
54.610	9.5387
55.020	9.6154
55.430	9.6920
55.840	9.7687
56.250	9.8453
56.660	9.9220
57.070	9.9986
57.480	10.075
57.890	10.152
58.300	10.229
58.710	10.305
59.120	10.382
59.555	10.459
60.073	10.535
60.592	10.612
61.110	10.689
61.628	10.765
62.146	10.842
62.664	10.918
63.149	10.995
63.471	11.075
63.793	11.154
64.115	11.230
64.436	11.307
64.758	11.384
65.080	11.460
65.402	11.537
65.724	11.614
66.046	11.690
66.368	11.767
66.689	11.843
67.011	11.920
67.333	11.997
67.655	12.073
67.977	12.150
68.635	12.227
69.308	12.303
69.981	12.380
70.654	12.457
71.326	12.533
71.999	12.610
72.672	12.687
73.345	12.763
74.018	12.840
74.691	12.917
75.325	12.993
75.562	13.070
75.799	13.147
76.036	13.223
76.274	13.300
76.511	13.377
76.748	13.453
76.985	13.530
77.222	13.607
77.460	13.683
77.697	13.760
77.934	13.836
78.040	13.913
78.111	13.990
78.686	14.066
79.261	14.143
79.837	14.220
80.412	14.296
81.003	14.373
81.680	14.450
82.357	14.526
83.034	14.603
83.711	14.680
84.388	14.756
85.065	14.833
85.742	14.910
86.419	14.986
87.097	15.063
87.774	15.140
88.451	15.216
88.871	15.293
89.206	15.370
89.541	15.446
89.876	15.523
90.211	15.600
90.546	15.676
90.881	15.753
91.216	15.829
91.551	15.906
91.886	15.983
92.221	16.059
92.556	16.136
92.890	16.213
93.225	16.289
93.560	16.366
93.895	16.442
94.434	16.519
95.223	16.595
96.012	16.672
96.802	16.748
97.591	16.825
98.380	16.902
99.170	16.978
99.959	17.055
100.75	17.131
101.46	17.208
101.86	17.284
102.27	17.361
102.67	17.437
103.08	17.514
103.48	17.590
103.89	17.667
104.29	17.743
104.69	17.820
105.10	17.896
105.50	17.973
105.91	18.049
106.31	18.126
106.72	18.203
107.12	18.279
107.53	18.356
107.93	18.432
108.34	18.509
108.74	18.586
109.15	18.662
109.70	18.739
110.33	18.816
110.96	18.892
111.59	18.969
112.22	19.046
112.85	19.122
113.48	19.199
114.12	19.276
114.75	19.352
115.38	19.429
115.93	19.505
116.34	19.582
116.74	19.659
117.14	19.735
117.55	19.812
117.95	19.889
118.35	19.965
118.76	20.042
119.16	20.119
119.56	20.195
119.97	20.272
120.37	20.349
120.77	20.425
121.18	20.502
121.58	20.579
121.98	20.655
122.41	20.732
123.48	20.808
124.55	20.885
125.62	20.962
126.70	21.038
127.77	21.115
128.45	21.192
128.85	21.268
129.25	21.345
129.66	21.422
130.06	21.498
130.46	21.575
130.87	21.652
131.27	21.728
131.67	21.805
132.08	21.881
132.48	21.958
132.88	22.035
133.29	22.111
133.69	22.188
134.09	22.265
134.50	22.341
134.90	22.418
135.30	22.495
135.71	22.571
136.11	22.648
136.51	22.725
136.92	22.801
137.32	22.878
138.74	22.954
140.46	23.031
142.18	23.108
143.27	23.184
143.77	23.261
144.26	23.338
144.76	23.415
145.25	23.492
145.75	23.569
146.24	23.646
146.73	23.722
147.23	23.799
147.72	23.876
148.22	23.952
148.71	24.029
149.20	24.106
149.70	24.182
150.19	24.259
150.69	24.336
151.18	24.412
151.68	24.489
152.17	24.566
152.66	24.642
153.16	24.719
153.65	24.796
154.15	24.872
154.64	24.949
155.67	25.025
157.05	25.102
158.43	25.179
159.81	25.255
161.19	25.332
162.57	25.409
163.88	25.485
164.40	25.562
164.93	25.639
165.45	25.715
165.97	25.792
166.49	25.869
167.01	25.945
167.53	26.022
168.05	26.099
168.58	26.175
169.10	26.252
169.62	26.329
170.14	26.405
170.66	26.482
171.18	26.558
171.70	26.635
172.23	26.712
172.75	26.788
173.27	26.865
173.79	26.942
174.31	27.018
175.30	27.095
176.90	27.172
178.50	27.248
180.10	27.325
181.69	27.402
183.29	27.479
184.89	27.555
186.49	27.632
187.21	27.709
187.75	27.785
188.30	27.862
188.84	27.939
189.38	28.016
189.92	28.092
190.46	28.169
191.01	28.246
191.55	28.323
192.09	28.399
192.63	28.476
193.18	28.553
193.72	28.630
194.26	28.706
194.80	28.783
195.35	28.860
195.89	28.937
196.43	29.013
196.97	29.090
197.92	29.167
199.98	29.243
202.04	29.320
204.09	29.397
206.15	29.474
208.21	29.550
210.27	29.627
212.08	29.704
212.92	29.780
213.77	29.856
214.62	29.933
215.47	30.009
216.31	30.085
217.16	30.162
218.01	30.238
218.86	30.315
219.71	30.391
220.55	30.468
221.40	30.545
222.25	30.622
223.10	30.698
223.94	30.775
224.79	30.852
225.64	30.928
226.49	31.005
227.43	31.081
228.63	31.158
229.99	31.235
232.76	31.311
235.53	31.388
238.29	31.464
241.06	31.541
243.83	31.617
246.59	31.694
249.31	31.771
250.75	31.847
252.18	31.924
253.62	32.000
255.06	32.077
256.49	32.154
257.93	32.230
259.37	32.307
260.80	32.383
262.24	32.460
263.67	32.536
265.11	32.613
266.55	32.690
267.98	32.766
269.42	32.843
270.86	32.919
272.29	32.996
273.87	33.072
276.06	33.149
278.24	33.225
280.43	33.302
283.56	33.379
288.16	33.455
292.76	33.532
297.36	33.608
300.70	33.685
303.14	33.761
305.58	33.838
308.02	33.914
310.46	33.991
312.90	34.067
315.34	34.144
317.78	34.221
320.22	34.297
322.66	34.374
325.10	34.450
327.54	34.527
329.98	34.603
332.42	34.680
334.86	34.756
337.30	34.833
340.81	34.909
344.53	34.986
348.25	35.063
351.97	35.139
355.69	35.216
359.42	35.292
364.62	35.369
370.07	35.445
375.53	35.522
380.99	35.598
386.44	35.675
391.49	35.751
396.53	35.828
401.56	35.905
406.59	35.981
411.62	36.058
416.66	36.134
421.69	36.211
426.72	36.287
431.76	36.364
437.24	36.440
444.73	36.517
452.22	36.593
459.72	36.670
467.21	36.746
474.70	36.823
482.20	36.899
489.69	36.974
495.78	36.966
458.54	36.873
429.01	36.800
410.97	36.726
392.94	36.652
374.91	36.578
356.87	36.504
338.84	36.428
331.18	36.351
323.87	36.274
316.56	36.197
309.25	36.121
301.94	36.044
294.63	35.967
287.32	35.891
280.01	35.814
272.70	35.737
265.39	35.661
261.26	35.584
258.91	35.507
256.55	35.431
254.19	35.354
251.83	35.277
249.47	35.201
247.11	35.124
244.76	35.047
242.40	34.971
240.04	34.894
237.68	34.817
235.32	34.741
232.97	34.664
230.61	34.587
228.25	34.511
225.89	34.434
223.53	34.357
221.18	34.281
218.82	34.204
217.17	34.127
215.95	34.051
214.74	33.974
213.52	33.897
212.30	33.821
211.08	33.744
209.86	33.667
208.65	33.590
207.43	33.514
206.21	33.437
204.99	33.360
203.77	33.284
202.55	33.207
201.34	33.130
200.12	33.054
198.90	32.977
197.68	32.900
196.46	32.824
195.25	32.747
194.03	32.670
192.81	32.594
191.82	32.517
190.84	32.440
189.85	32.364
188.87	32.287
187.89	32.210
186.90	32.134
185.92	32.057
184.93	31.980
183.95	31.904
182.97	31.827
181.98	31.750
181.15	31.674
180.42	31.597
179.70	31.520
178.97	31.444
178.25	31.367
177.53	31.290
176.80	31.214
176.08	31.137
175.35	31.060
174.63	30.984
173.90	30.907
173.18	30.830
172.46	30.754
171.73	30.677
171.01	30.600
170.28	30.524
169.56	30.447
168.83	30.371
168.11	30.294
167.39	30.217
166.66	30.141
165.94	30.064
165.21	29.987
164.54	29.911
163.88	29.834
163.22	29.757
162.55	29.681
161.89	29.604
161.23	29.527
160.57	29.451
159.91	29.374
159.25	29.297
158.59	29.221
157.93	29.144
157.27	29.067
156.62	28.991
156.02	28.914
155.42	28.837
154.82	28.761
154.22	28.684
153.62	28.607
153.02	28.531
152.42	28.454
151.82	28.377
151.22	28.301
150.62	28.224
150.02	28.147
149.42	28.071
148.82	27.994
148.22	27.917
147.62	27.841
147.02	27.764
146.42	27.687
145.82	27.611
145.22	27.534
144.62	27.457
144.02	27.381
143.42	27.304
142.86	27.228
142.37	27.151
141.88	27.074
141.39	26.998
140.90	26.921
140.41	26.844
140.79	26.768
140.08	26.691
139.46	26.614
138.87	26.538
138.28	26.461
137.69	26.384
137.10	26.308
136.51	26.231
135.91	26.154
135.32	26.078
134.73	26.001
134.14	25.924
133.55	25.848
132.95	25.771
132.36	25.694
131.79	25.618
131.30	25.541
130.80	25.464
130.30	25.388
129.81	25.311
129.31	25.234
128.81	25.158
128.32	25.081
127.82	25.005
127.32	24.928
126.83	24.851
126.33	24.774
125.83	24.698
125.34	24.621
124.84	24.544
124.35	24.468
123.85	24.391
123.35	24.314
122.86	24.237
122.36	24.160
121.86	24.083
121.37	24.006
120.87	23.929
120.37	23.852
119.88	23.775
119.38	23.698
118.88	23.622
118.39	23.545
117.89	23.468
117.39	23.392
116.90	23.315
116.40	23.239
115.90	23.162
115.41	23.085
114.91	23.009
114.41	22.932
113.92	22.855
113.42	22.779
112.92	22.702
112.43	22.625
111.93	22.549
111.44	22.472
110.94	22.395
110.44	22.319
109.95	22.242
109.45	22.165
108.95	22.089
108.46	22.012
107.96	21.935
107.46	21.859
106.97	21.782
106.47	21.705
105.97	21.629
105.48	21.552
104.98	21.475
104.48	21.399
103.99	21.322
103.49	21.245
102.99	21.169
102.50	21.092
102.00	21.015
101.50	20.939
101.01	20.862
100.51	20.786
100.02	20.709
99.519	20.633
99.022	20.556
98.564	20.480
98.162	20.403
97.759	20.327
97.357	20.250
96.955	20.174
96.526	20.097
96.073	20.021
95.619	19.944
95.166	19.867
94.713	19.791
94.260	19.714
93.806	19.638
93.353	19.561
92.900	19.485
92.447	19.408
91.993	19.332
91.540	19.255
91.087	19.178
90.634	19.102
90.180	19.025
89.727	18.949
89.274	18.872
88.821	18.796
88.367	18.719
87.914	18.643
87.461	18.566
87.008	18.489
86.554	18.413
86.101	18.336
85.648	18.260
85.195	18.183
84.741	18.107
84.288	18.030
83.851	17.954
83.419	17.877
82.986	17.800
82.554	17.724
82.121	17.647
81.688	17.571
81.256	17.494
80.823	17.417
80.390	17.340
79.958	17.264
79.525	17.187
79.093	17.110
78.660	17.033
78.227	16.957
77.786	16.880
77.340	16.803
76.894	16.727
76.448	16.650
76.002	16.573
75.556	16.496
75.110	16.420
74.664	16.343
74.218	16.266
73.772	16.189
73.326	16.113
72.880	16.036
72.434	15.959
71.988	15.882
71.542	15.805
71.864	15.728
71.045	15.651
70.051	15.575
69.169	15.498
68.724	15.421
68.278	15.344
67.832	15.267
67.387	15.190
66.941	15.113
66.496	15.036
66.050	14.959
65.605	14.883
65.159	14.806
64.714	14.730
64.268	14.653
63.823	14.577
63.377	14.500
62.932	14.424
62.486	14.347
62.041	14.271
61.595	14.194
61.150	14.117
60.704	14.041
60.258	13.964
59.813	13.888
59.367	13.811
58.922	13.735
58.476	13.658
58.031	13.582
57.585	13.505
57.140	13.428
56.694	13.352
56.249	13.275
55.803	13.199
55.358	13.122
54.912	13.045
54.467	12.969
54.021	12.892
53.576	12.815
53.130	12.738
52.684	12.662
52.239	12.585
51.793	12.508
51.348	12.431
50.902	12.355
50.457	12.278
50.011	12.201
49.566	12.124
49.120	12.048
48.675	11.971
48.229	11.894
47.784	11.817
47.338	11.741
46.893	11.664
46.447	11.587
46.002	11.510
45.556	11.433
45.110	11.357
44.665	11.280
44.219	11.203
43.774	11.126
43.328	11.050
42.883	10.973
42.437	10.896
41.992	10.819
41.546	10.743
41.101	10.666
40.655	10.589
40.210	10.512
39.764	10.436
39.319	10.359
38.873	10.282
38.428	10.206
37.982	10.129
37.536	10.052
37.091	9.9753
36.645	9.8986
36.200	9.8218
35.754	9.7451
35.309	9.6683
34.863	9.5916
34.418	9.5149
33.972	9.4381
33.527	9.3614
33.081	9.2846
32.636	9.2079
32.190	9.1312
31.745	9.0544
31.299	8.9777
30.854	8.9009
30.408	8.8242
29.962	8.7475
29.517	8.6707
29.071	8.5940
28.626	8.5172
28.180	8.4405
27.735	8.3638
27.289	8.2870
26.844	8.2103
26.398	8.1335
25.953	8.0568
25.507	7.9801
25.062	7.9033
24.616	7.8266
24.171	7.7498
23.725	7.6731
23.280	7.5963
22.834	7.5214
22.388	7.4459
21.943	7.3692
21.497	7.2926
21.058	7.2159
20.623	7.1393
20.187	7.0627
19.752	6.9860
19.316	6.9094
18.881	6.8327
18.445	6.7561
18.010	6.6795
17.575	6.6028
17.139	6.5262
16.704	6.4495
16.268	6.3729
15.833	6.2963
15.397	6.2196
14.962	6.1430
14.527	6.0663
14.091	5.9897
13.656	5.9131
13.220	5.8364
12.785	5.7598
12.349	5.6831
11.914	5.6065
11.478	5.5299
11.043	5.4532
10.608	5.3766
10.172	5.2999
9.7366	5.2233
9.3012	5.1467
8.8658	5.0700
8.4303	4.9934
7.9949	4.9167
7.5594	4.8400
7.1240	4.7634
6.6885	4.6867
6.2531	4.6100
5.8177	4.5333
5.4295	4.4567
5.0564	4.3800
4.6832	4.3033
4.3101	4.2267
3.9370	4.1500
3.5639	4.0733
3.1907	3.9966
2.8087	3.9200
2.3763	3.8433
1.9439	3.7666
1.5116	3.6899
1.0792	3.6133
0.64684	3.5366
0.21447	3.4599
-0.21789	3.3833
-0.65025	3.3066
-1.0826	3.2299
-1.5150	3.1532
-1.9473	3.0766
-2.3797	2.9999
-2.8121	2.9232
-3.2444	2.8465
-3.6768	2.7699
-4.1092	2.6932
-4.2778	2.6165
-4.4721	2.5398
-4.9208	2.4632
-5.3695	2.3865
-5.8183	2.3098
-6.2670	2.2332
-6.7157	2.1565
-7.1644	2.0798
-7.6131	2.0031
-8.0618	1.9265
-8.5105	1.8498
-8.9592	1.7731
-9.4079	1.6964
-9.8566	1.6198
-10.305	1.5431
-10.754	1.4664
-11.203	1.3898
-11.651	1.3131
-12.100	1.2364
-12.549	1.1597
-12.998	1.0831
-13.446	1.0064
-13.895	0.92971
-14.344	0.85304
-14.792	0.77637
-15.241	0.69969
-15.690	0.62302
-16.139	0.54635
-16.587	0.46967
-17.036	0.39300
-17.485	0.31633
-17.933	0.23966
-18.382	0.16298
-18.831	0.086310
-19.315	0.0096365
-19.822	-0.067037
-20.329	-0.14371
-20.835	-0.22038
-21.342	-0.29706
-21.848	-0.37373
-22.355	-0.45040
-22.862	-0.52708
-23.368	-0.60375
-23.875	-0.68042
-24.381	-0.75709
-24.888	-0.83377
-25.394	-0.91044
-25.901	-0.98711
-26.408	-1.0638
-26.914	-1.1405
-27.421	-1.2171
-27.927	-1.2938
-28.434	-1.3705
-28.941	-1.4472
-29.024	-1.5238
-28.711	-1.6005
-29.083	-1.6772
-29.544	-1.7538
-30.006	-1.8305
-30.467	-1.9072
-30.928	-1.9839
-31.390	-2.0605
-31.851	-2.1372
-32.312	-2.2139
-32.773	-2.2905
-33.235	-2.3672
-33.696	-2.4438
-34.157	-2.5204
-34.619	-2.5970
-35.080	-2.6736
-35.541	-2.7503
-36.003	-2.8269
-36.464	-2.9035
-36.925	-2.9801
-37.387	-3.0567
-37.848	-3.1334
-38.309	-3.2100
-38.770	-3.2866
-39.232	-3.3632
-39.693	-3.4399
-40.154	-3.5165
-40.616	-3.5931
-41.077	-3.6697
-41.538	-3.7464
-42.000	-3.8230
-42.461	-3.8996
-42.922	-3.9762
-43.384	-4.0529
-43.845	-4.1295
-44.306	-4.2061
-44.768	-4.2827
-45.229	-4.3594
-45.716	-4.4360
-46.231	-4.5126
-46.747	-4.5892
-47.262	-4.6659
-47.777	-4.7426
-48.292	-4.8193
-48.808	-4.8961
-49.323	-4.9728
-49.838	-5.0495
-50.354	-5.1263
-50.869	-5.2030
-51.384	-5.2798
-51.899	-5.3565
-52.415	-5.4333
-52.930	-5.5100
-53.445	-5.5868
-53.961	-5.6635
-54.476	-5.7403
-54.991	-5.8170
-55.506	-5.8937
-56.022	-5.9705
-56.537	-6.0472
-57.052	-6.1240
-57.568	-6.2007
-58.083	-6.2775
-58.598	-6.3542
-59.113	-6.4310
-59.629	-6.5077
-60.144	-6.5845
-60.659	-6.6612
-61.174	-6.7379
-61.690	-6.8146
-62.205	-6.8912
-62.720	-6.9678
-63.236	-7.0444
-63.751	-7.1210
-64.266	-7.1976
-64.781	-7.2742
-65.297	-7.3509
-65.812	-7.4275
-66.327	-7.5041
-66.841	-7.5807
-67.345	-7.6573
-67.850	-7.7339
-68.355	-7.8105
-68.860	-7.8872
-69.365	-7.9638
-69.870	-8.0404
-70.374	-8.1170
-70.879	-8.1936
-71.384	-8.2702
-71.889	-8.3468
-72.394	-8.4235
-72.898	-8.5001
-73.403	-8.5767
-73.908	-8.6533
-74.413	-8.7299
-74.918	-8.8065
-75.422	-8.8831
-75.927	-8.9598
-76.432	-9.0364
-76.937	-9.1130
-77.442	-9.1900
-77.947	-9.2674
-78.451	-9.3447
-78.956	-9.4220
-79.461	-9.4993
-79.966	-9.5759
-80.471	-9.6525
-80.975	-9.7291
-81.480	-9.8058
-81.985	-9.8824
-82.490	-9.9590
-82.995	-10.036
-83.500	-10.112
-84.004	-10.189
-84.509	-10.266
-85.014	-10.342
-85.519	-10.419
-86.024	-10.495
-86.528	-10.572
-87.033	-10.649
-87.538	-10.725
-88.043	-10.802
-88.548	-10.879
-89.052	-10.955
-89.557	-11.032
-90.062	-11.108
-90.567	-11.185
-91.072	-11.262
-91.577	-11.338
-92.081	-11.415
-92.586	-11.492
-93.091	-11.568
-93.596	-11.645
-94.101	-11.721
-94.662	-11.798
-95.234	-11.875
-95.806	-11.951
-96.377	-12.028
-96.949	-12.105
-97.521	-12.181
-98.092	-12.258
-98.664	-12.335
-99.236	-12.411
-99.807	-12.488
-100.38	-12.564
-100.95	-12.641
-101.52	-12.718
-102.09	-12.794
-102.67	-12.871
-103.24	-12.948
-103.81	-13.024
-104.38	-13.101
-104.95	-13.178
-105.52	-13.254
-106.10	-13.331
-106.67	-13.408
-107.24	-13.484
-107.81	-13.561
-108.38	-13.638
-108.95	-13.714
-109.53	-13.791
-110.10	-13.868
-110.67	-13.944
-111.24	-14.021
-111.81	-14.098
-112.38	-14.175
-112.96	-14.251
-113.53	-14.328
-114.10	-14.405
-114.67	-14.481
-115.24	-14.558
-115.81	-14.635
-116.39	-14.711
-116.96	-14.788
-117.53	-14.865
-118.10	-14.941
-118.67	-15.018
-119.24	-15.095
-119.82	-15.172
-120.39	-15.248
-120.96	-15.325
-121.53	-15.402
-122.10	-15.478
-122.67	-15.555
-123.25	-15.632
-123.82	-15.708
-124.39	-15.785
-124.96	-15.862
-125.53	-15.938
-126.10	-16.015
-126.68	-16.092
-127.25	-16.168
-127.82	-16.245
-128.39	-16.321
-128.96	-16.398
-129.54	-16.475
-130.11	-16.551
-130.68	-16.628
-131.25	-16.705
-131.82	-16.781
-132.39	-16.858
-132.97	-16.934
-133.54	-17.011
-134.24	-17.088
-134.97	-17.164
-135.69	-17.241
-136.42	-17.318
-137.15	-17.394
-137.88	-17.471
-138.60	-17.547
-139.31	-17.624
-140.02	-17.701
-140.74	-17.777
-141.45	-17.854
-142.16	-17.931
-142.87	-18.007
-143.59	-18.084
-144.30	-18.160
-145.01	-18.237
-145.72	-18.314
-146.44	-18.390
-147.15	-18.467
-147.86	-18.544
-148.58	-18.620
-149.29	-18.697
-150.00	-18.773
-150.71	-18.850
-150.82	-18.927
-150.89	-19.003
-150.97	-19.080
-151.04	-19.157
-151.11	-19.233
-151.18	-19.310
-152.16	-19.387
-153.18	-19.463
-154.20	-19.540
-155.22	-19.616
-156.24	-19.693
-157.26	-19.770
-158.28	-19.846
-159.30	-19.923
-160.32	-20.000
-161.34	-20.076
-162.36	-20.153
-163.23	-20.230
-163.98	-20.306
-164.73	-20.383
-165.48	-20.459
-166.23	-20.536
-166.98	-20.613
-167.73	-20.689
-168.48	-20.766
-169.22	-20.843
-169.97	-20.919
-170.72	-20.996
-171.47	-21.073
-172.22	-21.149
-172.97	-21.226
-173.72	-21.302
-174.47	-21.379
-175.22	-21.456
-175.97	-21.532
-176.72	-21.609
-177.47	-21.686
-178.22	-21.762
-178.97	-21.839
-179.72	-21.915
-180.47	-21.992
-181.22	-22.069
-181.97	-22.145
-182.72	-22.222
-183.59	-22.298
-184.68	-22.375
-185.76	-22.452
-186.84	-22.528
-187.93	-22.605
-189.02	-22.681
-190.13	-22.758
-191.24	-22.834
-192.35	-22.911
-193.46	-22.988
-194.57	-23.064
-195.68	-23.141
-196.79	-23.217
-197.90	-23.294
-199.01	-23.371
-200.06	-23.447
-200.82	-23.524
-201.58	-23.600
-202.34	-23.677
-203.59	-23.754
-205.71	-23.830
-207.83	-23.907
-209.95	-23.983
-212.07	-24.060
-214.19	-24.136
-216.30	-24.213
-218.42	-24.289
-221.79	-24.366
-229.75	-24.442
-237.71	-24.518
-251.16	-24.595
-270.15	-24.671
-289.15	-24.747
-318.14	-24.823
-349.95	-24.898
-381.76	-24.974
-413.56	-25.050
-450.51	-25.125
-494.17	-25.196
-504.81	-25.153
-421.54	-25.068
-363.94	-24.998
-321.41	-24.929
