Load (N)	Extension (mm)
	
	
39.894	3.5931
39.900	3.5931
39.905	3.5931
39.911	3.5931
39.917	3.5931
39.923	3.5931
39.929	3.5931
39.935	3.5931
39.940	3.5931
39.946	3.5931
39.952	3.5931
39.958	3.5850
32.973	3.5241
30.067	3.4573
28.788	3.3862
27.725	3.3106
26.679	3.2341
25.686	3.1556
24.805	3.0772
23.748	2.9988
22.996	2.9203
22.345	2.8419
21.783	2.7635
21.267	2.6850
20.755	2.6066
20.243	2.5282
19.731	2.4497
19.219	2.3713
18.707	2.2929
18.249	2.2144
17.842	2.1360
17.435	2.0577
17.028	1.9795
16.336	1.9012
15.520	1.8229
15.067	1.7451
14.613	1.6675
14.160	1.5899
13.707	1.5121
13.254	1.4340
12.800	1.3560
12.347	1.2779
11.894	1.1998
11.441	1.1218
10.987	1.0437
10.534	0.96561
10.081	0.88747
9.6276	0.80933
9.1744	0.73120
8.7211	0.65306
8.2678	0.57492
7.8146	0.49678
7.3613	0.41864
6.9081	0.34050
6.4548	0.26237
6.0016	0.18443
5.5483	0.10697
5.0950	0.029505
4.6418	-0.047178
4.6359	-0.093787
8.3486	-0.091053
9.4369	-0.087883
7.7319	-0.095954
5.2822	-0.11150
3.7599	-0.15383
2.9634	-0.22352
2.5247	-0.29321
2.0860	-0.36724
1.6473	-0.44514
1.2087	-0.52303
0.76998	-0.60092
0.33129	-0.67881
-0.10739	-0.75670
-0.54607	-0.83459
-0.98475	-0.91248
-1.4234	-0.99037
-1.8621	-1.0683
-2.3008	-1.1461
-2.7395	-1.2240
-3.1782	-1.3019
-3.6168	-1.3798
-4.0555	-1.4577
-4.4942	-1.5356
-4.9329	-1.6135
-5.3716	-1.6914
-5.8103	-1.7693
-6.2489	-1.8472
-6.6876	-1.9251
-7.1263	-2.0029
-7.5650	-2.0808
-8.0037	-2.1587
-8.4423	-2.2366
-8.8810	-2.3145
-9.3197	-2.3924
-9.7584	-2.4703
-10.197	-2.5482
-10.636	-2.6261
-11.074	-2.7040
-11.513	-2.7819
-11.952	-2.8597
-12.390	-2.9376
-12.829	-3.0155
-13.268	-3.0934
-13.707	-3.1713
-14.145	-3.2492
-14.584	-3.3271
-15.023	-3.4050
-15.461	-3.4829
-15.900	-3.5608
-16.339	-3.6386
-16.777	-3.7165
-17.216	-3.7944
-17.655	-3.8723
-18.093	-3.9502
-18.532	-4.0281
-18.971	-4.1060
-19.409	-4.1839
-19.848	-4.2618
-20.287	-4.3397
-20.725	-4.4176
-21.164	-4.4954
-21.603	-4.5733
-22.041	-4.6512
-22.480	-4.7291
-22.919	-4.8070
-23.358	-4.8849
-23.796	-4.9628
-24.235	-5.0407
-24.674	-5.1186
-25.112	-5.1965
-25.551	-5.2743
-25.990	-5.3522
-26.428	-5.4301
-26.867	-5.5080
-27.306	-5.5859
-27.744	-5.6638
-28.183	-5.7417
-28.622	-5.8195
-29.060	-5.8974
-29.499	-5.9752
-29.938	-6.0530
-30.376	-6.1308
-30.815	-6.2086
-31.254	-6.2864
-31.692	-6.3642
-32.131	-6.4420
-32.570	-6.5198
-33.009	-6.5976
-33.447	-6.6755
-33.886	-6.7533
-34.325	-6.8311
-34.763	-6.9089
-35.202	-6.9867
-35.641	-7.0645
-36.079	-7.1423
-36.518	-7.2201
-36.957	-7.2979
-37.395	-7.3757
-37.834	-7.4535
-38.273	-7.5314
-38.711	-7.6092
-39.150	-7.6870
-39.589	-7.7648
-40.027	-7.8426
-40.466	-7.9204
-40.905	-7.9982
-41.343	-8.0761
-41.782	-8.1540
-42.221	-8.2320
-42.660	-8.3099
-43.098	-8.3878
-43.537	-8.4657
-43.976	-8.5436
-44.414	-8.6215
-44.853	-8.6994
-45.292	-8.7773
-45.730	-8.8552
-46.169	-8.9331
-46.608	-9.0110
-47.046	-9.0889
-47.485	-9.1668
-47.924	-9.2447
-48.362	-9.3227
-48.801	-9.4006
-47.668	-9.4785
-48.094	-9.5564
-48.521	-9.6343
-48.947	-9.7122
-49.373	-9.7901
-49.800	-9.8680
-50.226	-9.9459
-50.652	-10.024
-51.078	-10.102
-51.505	-10.180
-51.931	-10.258
-52.357	-10.335
-52.783	-10.413
-53.210	-10.491
-53.636	-10.569
-54.062	-10.647
-54.488	-10.725
-54.915	-10.803
-55.341	-10.881
-55.767	-10.959
-56.193	-11.037
-56.620	-11.115
-57.046	-11.192
-57.472	-11.270
-57.898	-11.348
-58.325	-11.426
-58.751	-11.504
-59.177	-11.582
-59.603	-11.660
-60.030	-11.738
-60.456	-11.816
-60.882	-11.894
-61.308	-11.971
-61.735	-12.049
-62.161	-12.127
-62.587	-12.205
-63.014	-12.283
-63.440	-12.361
-63.866	-12.439
-64.292	-12.517
-64.719	-12.595
-65.145	-12.673
-65.571	-12.750
-65.997	-12.828
-66.424	-12.906
-66.850	-12.984
-67.276	-13.062
-67.702	-13.140
-68.129	-13.218
-68.555	-13.296
-68.981	-13.374
-69.407	-13.452
-69.834	-13.529
-70.260	-13.607
-70.749	-13.685
-71.247	-13.763
-71.744	-13.841
-72.241	-13.919
-72.739	-13.997
-73.236	-14.075
-73.733	-14.152
-74.231	-14.230
-74.728	-14.308
-75.225	-14.386
-75.723	-14.464
-76.220	-14.542
-76.717	-14.619
-77.215	-14.697
-77.701	-14.775
-78.175	-14.853
-78.649	-14.931
-79.123	-15.008
-79.597	-15.086
-80.071	-15.164
-80.545	-15.242
-81.019	-15.320
-81.493	-15.397
-81.967	-15.475
-82.441	-15.553
-82.915	-15.631
-83.389	-15.709
-83.863	-15.786
-84.337	-15.864
-84.811	-15.942
-85.285	-16.020
-85.774	-16.098
-86.266	-16.175
-86.757	-16.253
-87.249	-16.331
-87.741	-16.409
-88.232	-16.487
-88.724	-16.564
-89.215	-16.642
-89.707	-16.720
-90.198	-16.798
-90.690	-16.876
-91.181	-16.954
-91.673	-17.031
-92.164	-17.109
-92.656	-17.187
-93.147	-17.265
-93.639	-17.343
-94.130	-17.420
-94.622	-17.498
-95.113	-17.576
-95.605	-17.654
-96.096	-17.732
-96.588	-17.810
-97.056	-17.887
-97.520	-17.965
-97.985	-18.043
-98.449	-18.121
-98.913	-18.199
-99.378	-18.276
-99.842	-18.354
-100.31	-18.432
-100.77	-18.510
-101.24	-18.588
-101.70	-18.665
-102.16	-18.743
-102.63	-18.821
-103.09	-18.899
-103.56	-18.977
-104.02	-19.055
-104.49	-19.132
-104.95	-19.210
-105.41	-19.288
-105.88	-19.366
-106.34	-19.444
-106.81	-19.523
-107.27	-19.602
-107.74	-19.679
-108.20	-19.757
-108.67	-19.835
-109.13	-19.913
-109.63	-19.991
-110.17	-20.069
-110.70	-20.146
-111.23	-20.224
-111.76	-20.302
-112.30	-20.380
-112.83	-20.458
-113.36	-20.536
-113.89	-20.614
-114.42	-20.691
-114.96	-20.769
-115.49	-20.847
-116.02	-20.925
-116.58	-21.003
-117.15	-21.081
-117.72	-21.158
-118.29	-21.236
-118.86	-21.314
-119.43	-21.392
-120.00	-21.470
-120.56	-21.548
-121.13	-21.625
-121.70	-21.703
-122.27	-21.781
-122.84	-21.859
-123.40	-21.937
-123.94	-22.015
-124.48	-22.092
-125.02	-22.170
-125.57	-22.248
-126.11	-22.326
-126.65	-22.404
-127.19	-22.481
-127.73	-22.559
-128.28	-22.637
-128.82	-22.714
-129.36	-22.792
-129.90	-22.870
-130.49	-22.948
-131.73	-23.025
-132.98	-23.103
-134.22	-23.181
-136.29	-23.259
-139.96	-23.337
-140.57	-23.415
-145.92	-23.493
-154.64	-23.571
-169.81	-23.648
-191.90	-23.725
-215.92	-23.801
-244.76	-23.878
-279.01	-23.955
-315.49	-24.032
-349.91	-24.109
-382.38	-24.185
-423.84	-24.262
-467.64	-24.339
-508.93	-24.413
-531.00	-24.448
-527.83	-24.450
-524.66	-24.452
-521.49	-24.450
-518.32	-24.449
-463.11	-24.390
-401.54	-24.316
-345.42	-24.241
-295.75	-24.166
-240.05	-24.091
-202.06	-24.016
-164.07	-23.941
-142.43	-23.865
-136.67	-23.789
-130.91	-23.711
-125.14	-23.633
-119.38	-23.555
-113.61	-23.478
-107.85	-23.400
-102.09	-23.322
-96.321	-23.244
-90.557	-23.166
-84.793	-23.088
-79.028	-23.011
-73.264	-22.933
-68.233	-22.855
-67.911	-22.777
-67.589	-22.699
-67.267	-22.621
-66.945	-22.543
-66.624	-22.466
-66.302	-22.388
-65.980	-22.310
-65.658	-22.232
-65.336	-22.154
-65.014	-22.076
-64.693	-21.999
-64.371	-21.921
-64.049	-21.843
-63.727	-21.765
-63.405	-21.687
-63.083	-21.609
-62.762	-21.531
-62.440	-21.454
-62.118	-21.376
-61.796	-21.298
-61.474	-21.220
-61.153	-21.142
-60.831	-21.064
-60.509	-20.987
-60.187	-20.909
-59.865	-20.831
-59.543	-20.753
-59.222	-20.675
-58.900	-20.597
-58.578	-20.519
-58.256	-20.442
-57.934	-20.364
-57.612	-20.286
-57.291	-20.208
-56.969	-20.130
-56.647	-20.052
-71.683	-19.975
-71.346	-19.897
-71.010	-19.819
-70.673	-19.741
-70.336	-19.663
-69.999	-19.585
-69.662	-19.507
-69.326	-19.430
-68.989	-19.352
-68.652	-19.276
-68.315	-19.199
-67.979	-19.121
-67.642	-19.044
-67.305	-18.966
-66.968	-18.888
-66.632	-18.810
-66.295	-18.732
-65.958	-18.654
-65.621	-18.576
-65.284	-18.498
-64.948	-18.420
-64.611	-18.343
-64.274	-18.265
-63.937	-18.187
-63.325	-18.109
-61.192	-18.031
-60.035	-17.953
-59.682	-17.875
-59.329	-17.797
-58.975	-17.719
-58.622	-17.641
-58.269	-17.564
-57.915	-17.486
-57.562	-17.408
-57.209	-17.330
-56.855	-17.252
-56.502	-17.174
-56.149	-17.096
-55.795	-17.018
-55.442	-16.940
-55.089	-16.863
-54.823	-16.785
-54.622	-16.707
-54.422	-16.629
-54.221	-16.551
-54.021	-16.473
-53.820	-16.395
-53.620	-16.317
-53.420	-16.239
-53.018	-16.161
-52.451	-16.084
-51.884	-16.006
-51.316	-15.928
-50.749	-15.850
-50.182	-15.772
-49.614	-15.695
-49.047	-15.617
-48.479	-15.539
-47.912	-15.461
-47.345	-15.383
-46.777	-15.305
-46.315	-15.228
-46.176	-15.150
-46.037	-15.072
-45.898	-14.994
-45.759	-14.916
-45.620	-14.838
-45.481	-14.761
-45.343	-14.683
-45.204	-14.605
-45.065	-14.527
-44.926	-14.449
-44.787	-14.372
-44.648	-14.294
-43.783	-14.216
-42.873	-14.138
-41.962	-14.060
-41.051	-13.982
-40.198	-13.905
-39.743	-13.827
-39.287	-13.749
-38.831	-13.671
-38.375	-13.593
-37.919	-13.515
-37.464	-13.438
-37.008	-13.360
-36.552	-13.282
-36.096	-13.204
-35.641	-13.126
-35.461	-13.048
-35.292	-12.971
-35.123	-12.893
-34.954	-12.815
-34.785	-12.737
-34.616	-12.659
-34.448	-12.581
-34.279	-12.503
-34.110	-12.425
-33.941	-12.348
-33.409	-12.270
-31.870	-12.192
-31.074	-12.114
-30.660	-12.036
-30.247	-11.958
-29.834	-11.880
-29.421	-11.802
-29.007	-11.724
-28.594	-11.647
-28.181	-11.569
-27.767	-11.491
-27.354	-11.413
-26.941	-11.335
-26.527	-11.257
-26.114	-11.179
-25.952	-11.101
-25.844	-11.023
-25.736	-10.946
-25.629	-10.868
-25.521	-10.790
-25.413	-10.712
-25.305	-10.634
-25.198	-10.556
-25.090	-10.478
-24.982	-10.400
-24.226	-10.323
-23.134	-10.245
-22.042	-10.167
-20.950	-10.089
-19.858	-10.011
-19.471	-9.9331
-19.213	-9.8552
-18.956	-9.7773
-18.699	-9.6995
-18.441	-9.6216
-18.184	-9.5437
-17.927	-9.4658
-17.670	-9.3879
-17.412	-9.3100
-17.155	-9.2322
-16.898	-9.1543
-16.640	-9.0764
-16.429	-8.9985
-16.256	-8.9206
-16.083	-8.8427
-15.911	-8.7648
-15.738	-8.6863
-15.565	-8.6077
-15.392	-8.5298
-15.166	-8.4519
-13.960	-8.3740
-12.755	-8.2961
-11.549	-8.2182
-10.344	-8.1404
-9.3728	-8.0625
-9.1554	-7.9846
-8.9379	-7.9067
-8.7205	-7.8288
-8.5030	-7.7509
-8.2855	-7.6730
-8.0681	-7.5952
-7.8506	-7.5173
-7.6332	-7.4394
-7.4157	-7.3615
-7.1982	-7.2836
-6.9808	-7.2057
-6.7633	-7.1278
-7.0171	-7.0500
-7.3040	-6.9721
-7.5909	-6.8942
-7.8777	-6.8163
-7.4769	-6.7384
-6.7139	-6.6605
-5.9509	-6.5826
-5.1879	-6.5048
-4.4249	-6.4269
-3.6619	-6.3490
-2.8989	-6.2711
-2.1359	-6.1932
-1.3729	-6.1153
-0.60993	-6.0375
0.15306	-5.9596
0.60127	-5.8809
0.61786	-5.8012
0.63444	-5.7231
0.65102	-5.6454
0.66760	-5.5677
0.68418	-5.4900
0.70077	-5.4123
0.71735	-5.3346
0.73393	-5.2569
0.75051	-5.1791
0.76710	-5.1014
0.78368	-5.0237
0.80026	-4.9460
0.85751	-4.8683
1.7091	-4.7906
2.5607	-4.7129
3.4122	-4.6352
4.2638	-4.5575
5.1154	-4.4798
5.9670	-4.4021
6.8185	-4.3244
7.6701	-4.2467
8.5217	-4.1690
9.3732	-4.0913
9.6077	-4.0136
9.7621	-3.9358
9.9166	-3.8581
10.071	-3.7804
10.225	-3.7026
10.380	-3.6248
10.534	-3.5470
10.689	-3.4691
10.843	-3.3913
10.793	-3.3134
10.688	-3.2356
10.583	-3.1577
10.479	-3.0799
10.872	-3.0021
11.740	-2.9242
12.608	-2.8464
13.475	-2.7685
14.343	-2.6907
15.211	-2.6128
16.079	-2.5350
16.946	-2.4572
17.814	-2.3793
18.388	-2.3015
18.552	-2.2236
18.716	-2.1458
18.880	-2.0679
19.044	-1.9901
19.209	-1.9123
19.373	-1.8344
19.537	-1.7566
19.701	-1.6787
19.865	-1.6009
20.030	-1.5231
20.194	-1.4452
20.365	-1.3674
20.593	-1.2895
20.820	-1.2117
21.048	-1.1338
21.276	-1.0560
21.503	-0.97816
21.731	-0.90031
22.277	-0.81753
22.963	-0.73742
23.649	-0.66020
24.335	-0.58297
25.021	-0.50575
25.707	-0.42853
26.393	-0.35130
26.690	-0.27408
26.852	-0.19686
27.014	-0.11963
27.177	-0.042409
27.339	0.034814
27.501	0.11229
27.664	0.19016
27.826	0.26803
27.988	0.34590
28.151	0.42377
28.420	0.50164
28.766	0.57951
29.112	0.65738
29.458	0.73525
29.804	0.81311
30.150	0.89098
30.496	0.96885
30.893	1.0467
31.802	1.1246
32.711	1.2025
33.619	1.2803
34.528	1.3582
35.230	1.4361
35.387	1.5139
35.545	1.5918
35.703	1.6697
35.861	1.7475
36.019	1.8254
36.176	1.9033
36.334	1.9812
36.492	2.0590
36.650	2.1369
36.807	2.2148
36.965	2.2926
37.123	2.3705
37.281	2.4484
37.439	2.5262
38.177	2.6041
39.033	2.6820
39.888	2.7598
40.743	2.8377
41.599	2.9156
42.454	2.9935
43.309	3.0713
44.165	3.1492
45.020	3.2271
45.363	3.3049
45.524	3.3828
45.686	3.4607
45.848	3.5385
46.009	3.6164
46.171	3.6943
46.333	3.7721
46.494	3.8500
46.656	3.9279
46.818	4.0058
46.979	4.0836
47.141	4.1615
47.303	4.2394
47.590	4.3173
48.095	4.3952
48.599	4.4731
49.104	4.5510
49.609	4.6289
50.113	4.7068
50.618	4.7847
51.123	4.8626
51.628	4.9405
52.132	5.0184
52.581	5.0963
53.009	5.1742
53.437	5.2521
53.866	5.3300
54.294	5.4079
54.723	5.4858
55.151	5.5637
55.579	5.6416
56.008	5.7195
56.475	5.7974
57.268	5.8753
58.060	5.9532
58.852	6.0311
59.644	6.1090
59.939	6.1869
60.132	6.2648
60.324	6.3427
60.516	6.4206
60.709	6.4985
60.901	6.5764
61.094	6.6543
61.286	6.7322
61.479	6.8101
61.671	6.8833
61.864	6.9549
62.056	7.0281
62.249	7.1272
62.441	7.2046
62.633	7.2817
63.234	7.3589
63.906	7.4360
64.578	7.5132
65.250	7.5903
65.922	7.6675
66.594	7.7447
67.266	7.8218
67.938	7.8992
68.610	7.9771
69.282	8.0550
69.954	8.1328
70.585	8.2107
70.762	8.2886
70.939	8.3664
71.116	8.4443
71.292	8.5222
71.469	8.6000
71.646	8.6779
71.823	8.7558
72.000	8.8336
72.177	8.9115
72.354	8.9893
72.531	9.0672
72.708	9.1451
73.022	9.2229
73.757	9.3008
74.492	9.3787
75.227	9.4565
75.962	9.5344
76.697	9.6123
77.433	9.6901
78.168	9.7680
78.903	9.8459
79.638	9.9237
80.322	10.002
80.433	10.079
80.544	10.157
80.654	10.235
80.765	10.313
80.876	10.391
80.987	10.469
81.097	10.547
81.208	10.625
81.319	10.702
81.430	10.780
81.540	10.858
81.651	10.936
82.333	11.014
83.178	11.092
84.022	11.170
84.867	11.247
85.712	11.325
86.556	11.403
87.401	11.481
88.245	11.559
89.090	11.637
89.934	11.715
90.779	11.793
91.233	11.870
91.360	11.948
91.488	12.026
91.616	12.104
91.744	12.182
91.871	12.260
91.999	12.338
92.127	12.416
92.255	12.493
92.382	12.571
92.510	12.649
92.638	12.727
92.766	12.805
92.894	12.883
93.092	12.961
93.910	13.039
94.728	13.117
95.546	13.194
96.363	13.272
97.181	13.350
97.999	13.428
98.817	13.506
99.635	13.584
100.45	13.662
101.27	13.740
102.09	13.818
102.91	13.895
103.05	13.973
103.03	14.051
103.01	14.129
102.99	14.207
102.97	14.285
102.95	14.363
102.93	14.441
102.91	14.519
102.89	14.596
102.87	14.674
103.36	14.752
104.13	14.830
104.90	14.908
105.67	14.986
106.44	15.064
107.28	15.142
108.29	15.220
109.30	15.297
110.31	15.375
111.00	15.453
111.42	15.531
111.84	15.609
112.25	15.687
112.67	15.765
113.08	15.843
113.50	15.921
113.92	15.998
114.33	16.076
114.75	16.154
115.12	16.232
115.42	16.310
115.72	16.388
116.02	16.466
116.32	16.544
116.62	16.622
116.91	16.700
117.21	16.778
117.51	16.855
117.81	16.933
118.11	17.011
118.73	17.089
119.51	17.167
120.28	17.245
121.05	17.323
121.83	17.401
122.60	17.479
123.37	17.557
124.15	17.635
124.92	17.712
125.69	17.790
126.21	17.868
126.48	17.946
126.75	18.024
127.03	18.102
127.30	18.180
127.57	18.258
127.84	18.336
128.12	18.414
128.39	18.491
128.66	18.569
128.94	18.647
129.21	18.725
129.66	18.803
130.75	18.881
131.84	18.959
132.94	19.037
134.03	19.115
135.12	19.193
136.22	19.270
137.11	19.348
137.44	19.426
137.77	19.504
138.10	19.582
138.43	19.660
138.76	19.738
139.09	19.816
139.42	19.894
139.75	19.972
140.09	20.049
140.42	20.127
140.75	20.205
141.08	20.283
141.41	20.361
141.74	20.439
142.07	20.517
142.40	20.595
143.13	20.673
144.04	20.751
144.96	20.828
145.88	20.906
147.27	20.984
149.40	21.062
150.15	21.140
150.54	21.218
150.92	21.296
151.31	21.374
151.70	21.452
152.08	21.530
152.47	21.608
152.86	21.685
153.24	21.763
153.63	21.841
154.01	21.919
154.40	21.997
154.79	22.075
155.17	22.152
155.56	22.230
155.95	22.308
156.33	22.386
156.72	22.463
157.17	22.541
158.45	22.619
159.72	22.697
161.00	22.774
162.27	22.852
163.55	22.930
164.83	23.007
166.10	23.085
167.38	23.163
168.66	23.241
168.87	23.318
169.06	23.396
169.25	23.474
169.44	23.552
169.63	23.630
169.82	23.708
170.01	23.786
170.20	23.864
170.40	23.942
170.59	24.020
170.78	24.098
170.97	24.175
171.16	24.253
172.02	24.331
173.32	24.409
174.61	24.487
175.91	24.565
177.21	24.643
178.51	24.721
179.81	24.799
181.11	24.877
182.41	24.955
183.71	25.033
185.01	25.110
185.90	25.188
186.10	25.266
186.30	25.344
186.50	25.422
186.70	25.500
186.91	25.578
187.11	25.656
187.31	25.733
187.51	25.811
187.71	25.889
187.91	25.967
188.11	26.045
188.32	26.123
188.52	26.201
188.72	26.279
188.92	26.357
190.19	26.434
191.63	26.512
193.07	26.590
194.51	26.668
195.95	26.746
197.39	26.824
198.83	26.902
200.27	26.980
201.72	27.057
203.16	27.135
204.60	27.213
205.95	27.291
206.34	27.369
206.73	27.447
207.13	27.525
207.52	27.603
207.91	27.680
208.31	27.758
208.70	27.836
209.09	27.914
209.48	27.992
209.88	28.070
210.27	28.148
210.66	28.226
211.06	28.304
211.45	28.381
211.97	28.459
213.53	28.537
215.08	28.615
216.63	28.693
218.18	28.771
219.73	28.849
221.28	28.927
222.83	29.004
224.38	29.082
225.94	29.160
227.49	29.238
229.04	29.316
229.56	29.394
229.94	29.472
230.32	29.550
230.70	29.627
231.08	29.705
231.46	29.783
231.84	29.861
232.22	29.939
232.60	30.017
232.98	30.095
233.37	30.173
233.83	30.250
234.28	30.328
234.74	30.406
235.19	30.484
236.03	30.562
237.54	30.639
239.05	30.715
240.55	30.792
242.06	30.870
243.56	30.948
245.07	31.026
246.58	31.104
248.08	31.182
249.59	31.260
251.09	31.337
252.51	31.415
253.35	31.493
254.19	31.571
255.04	31.649
255.88	31.727
256.72	31.805
257.56	31.883
258.40	31.961
259.24	32.039
260.08	32.117
260.92	32.195
261.76	32.273
263.57	32.351
265.49	32.429
267.40	32.507
269.32	32.585
271.24	32.663
273.15	32.740
275.07	32.818
276.99	32.896
278.92	32.974
280.84	33.052
282.77	33.130
284.69	33.208
286.61	33.285
288.54	33.363
290.46	33.441
292.39	33.519
294.31	33.597
296.22	33.675
298.10	33.753
299.98	33.830
301.86	33.908
303.74	33.986
305.62	34.064
307.50	34.142
309.38	34.220
311.27	34.298
313.15	34.375
315.03	34.453
316.91	34.531
318.79	34.609
320.93	34.687
323.08	34.765
325.24	34.843
327.40	34.921
329.55	34.998
331.71	35.076
333.86	35.154
336.02	35.232
338.18	35.310
340.33	35.387
341.99	35.464
343.50	35.541
345.01	35.619
346.52	35.696
348.03	35.773
349.54	35.851
351.05	35.929
352.56	36.007
354.07	36.084
355.58	36.162
358.89	36.240
363.33	36.318
367.76	36.395
372.19	36.473
376.63	36.551
379.94	36.629
382.97	36.707
386.00	36.784
389.04	36.862
392.07	36.940
395.11	37.018
398.14	37.095
401.17	37.173
406.09	37.251
411.53	37.329
416.98	37.407
422.43	37.484
427.88	37.562
433.32	37.640
438.77	37.718
444.22	37.795
450.04	37.873
457.19	37.951
464.34	38.029
471.49	38.106
478.64	38.184
485.79	38.262
492.94	38.272
442.58	38.180
409.54	38.106
392.34	38.035
375.14	37.964
357.94	37.893
340.74	37.820
333.05	37.742
326.23	37.664
319.41	37.586
312.59	37.508
305.77	37.431
298.95	37.353
292.13	37.275
285.31	37.197
278.49	37.119
271.67	37.041
264.85	36.963
258.03	36.885
251.64	36.808
250.24	36.730
248.85	36.652
247.45	36.574
246.06	36.496
244.67	36.418
243.27	36.340
241.88	36.262
240.48	36.185
239.09	36.107
237.70	36.029
236.30	35.951
234.91	35.873
233.52	35.795
232.12	35.717
230.73	35.639
229.33	35.562
227.94	35.484
226.55	35.406
225.15	35.328
223.76	35.250
222.37	35.172
220.97	35.094
219.58	35.016
218.18	34.939
216.79	34.861
215.40	34.783
214.00	34.705
212.61	34.627
211.22	34.549
209.82	34.471
208.43	34.394
207.03	34.316
205.64	34.238
204.25	34.160
202.85	34.082
201.46	34.004
200.06	33.926
198.67	33.848
199.51	33.771
202.08	33.693
201.49	33.615
200.77	33.537
200.04	33.459
199.31	33.381
198.59	33.303
197.86	33.225
197.14	33.148
196.41	33.070
195.69	32.992
194.96	32.914
194.23	32.836
193.51	32.758
192.78	32.680
192.06	32.602
191.33	32.525
190.60	32.447
189.88	32.369
189.15	32.291
188.43	32.213
187.70	32.135
186.98	32.057
186.25	31.979
185.52	31.902
184.80	31.824
184.07	31.746
183.35	31.668
182.62	31.590
181.90	31.512
181.17	31.434
180.44	31.356
179.72	31.279
178.99	31.201
178.27	31.123
177.54	31.045
176.81	30.967
176.09	30.889
175.36	30.811
174.64	30.733
173.91	30.656
173.19	30.578
172.46	30.500
171.73	30.422
171.01	30.344
170.28	30.266
169.56	30.188
168.89	30.110
168.27	30.033
167.66	29.955
167.05	29.877
166.43	29.799
165.82	29.721
165.21	29.643
164.59	29.565
163.98	29.487
163.37	29.410
162.75	29.332
162.14	29.254
161.53	29.176
160.91	29.098
160.30	29.020
159.69	28.942
159.07	28.864
158.46	28.787
157.85	28.709
157.23	28.631
156.62	28.553
156.01	28.475
155.39	28.397
154.78	28.319
154.17	28.241
153.55	28.164
152.94	28.086
152.33	28.008
151.71	27.930
151.10	27.852
150.49	27.774
149.87	27.696
149.26	27.618
148.65	27.541
148.03	27.463
147.42	27.385
146.81	27.307
146.19	27.229
145.58	27.151
145.06	27.073
144.54	26.995
144.02	26.918
143.49	26.840
142.97	26.762
142.45	26.684
141.93	26.606
141.41	26.528
140.89	26.450
140.37	26.372
139.85	26.295
139.33	26.217
138.81	26.139
138.29	26.061
137.77	25.983
137.25	25.905
136.73	25.827
136.21	25.749
135.69	25.672
135.17	25.594
134.65	25.516
134.13	25.438
133.61	25.360
133.09	25.282
132.57	25.204
132.05	25.126
131.52	25.049
131.00	24.971
130.48	24.893
129.96	24.815
129.44	24.737
128.92	24.659
128.40	24.581
127.88	24.503
127.36	24.426
126.84	24.348
126.32	24.270
125.80	24.192
125.28	24.115
124.76	24.037
124.24	23.960
123.72	23.882
123.20	23.804
122.68	23.726
122.16	23.648
121.64	23.570
121.12	23.493
120.60	23.415
120.08	23.337
119.56	23.259
119.03	23.181
118.51	23.103
117.99	23.025
117.47	22.947
116.95	22.869
116.43	22.792
115.91	22.714
115.39	22.636
114.87	22.558
114.35	22.480
113.83	22.402
113.31	22.326
112.79	22.248
112.27	22.167
111.78	22.089
111.30	22.011
110.81	21.933
110.33	21.855
109.85	21.777
109.36	21.700
108.88	21.622
108.40	21.544
107.91	21.466
107.43	21.388
106.95	21.311
106.47	21.233
105.98	21.155
105.50	21.077
105.02	20.999
104.53	20.922
104.05	20.844
103.57	20.766
103.09	20.688
102.60	20.610
102.12	20.533
101.64	20.455
101.15	20.377
100.67	20.299
100.19	20.221
99.705	20.144
99.222	20.066
98.739	19.988
98.256	19.910
97.773	19.832
97.290	19.755
96.807	19.677
96.324	19.599
95.842	19.521
95.359	19.443
94.876	19.366
94.393	19.288
93.910	19.210
93.427	19.132
92.944	19.054
92.461	18.977
91.978	18.899
91.495	18.821
91.012	18.743
90.529	18.665
90.046	18.588
89.563	18.510
89.081	18.432
88.598	18.354
88.115	18.276
87.632	18.198
87.149	18.120
86.666	18.042
86.183	17.964
85.700	17.887
85.217	17.809
84.734	17.731
84.251	17.653
83.768	17.575
83.285	17.497
82.802	17.419
82.320	17.341
81.837	17.263
81.354	17.185
80.889	17.108
80.437	17.030
79.985	16.952
79.533	16.874
79.081	16.796
78.629	16.718
78.177	16.640
77.725	16.562
77.273	16.484
76.821	16.406
76.368	16.328
75.916	16.251
75.464	16.173
75.012	16.095
74.560	16.017
74.108	15.939
73.656	15.861
73.204	15.783
72.752	15.705
72.300	15.627
71.848	15.549
71.396	15.472
70.944	15.394
70.492	15.316
70.039	15.238
69.587	15.160
69.135	15.082
68.683	15.004
68.231	14.927
67.779	14.849
67.327	14.771
66.877	14.694
66.428	14.616
65.979	14.538
65.530	14.461
65.081	14.383
64.632	14.306
64.183	14.228
63.734	14.150
63.285	14.073
62.836	13.995
62.387	13.917
61.938	13.838
61.489	13.759
61.040	13.681
60.591	13.603
60.142	13.525
59.693	13.447
59.244	13.369
58.795	13.292
58.346	13.214
57.897	13.136
57.448	13.058
56.999	12.980
56.550	12.902
56.101	12.824
55.652	12.746
55.203	12.668
54.754	12.590
54.305	12.512
53.856	12.434
53.407	12.356
52.958	12.279
52.509	12.201
52.060	12.123
51.611	12.045
51.162	11.967
50.713	11.889
50.264	11.811
49.815	11.733
49.366	11.655
48.917	11.577
48.468	11.499
48.019	11.422
47.570	11.344
47.121	11.266
46.672	11.188
46.223	11.110
45.774	11.032
45.325	10.954
44.876	10.876
44.427	10.799
43.978	10.721
43.529	10.643
43.080	10.565
42.631	10.487
42.182	10.409
41.733	10.331
41.284	10.253
40.835	10.175
40.386	10.098
39.937	10.020
39.488	9.9417
39.039	9.8639
38.590	9.7860
38.149	9.7081
37.722	9.6302
37.295	9.5523
36.868	9.4744
36.441	9.3965
36.014	9.3187
35.588	9.2408
35.161	9.1629
34.734	9.0850
34.307	9.0071
33.880	8.9292
33.453	8.8513
33.026	8.7734
32.599	8.6956
32.172	8.6177
31.745	8.5398
31.318	8.4619
30.891	8.3840
30.464	8.3061
30.037	8.2282
29.610	8.1504
29.183	8.0725
28.756	7.9946
28.329	7.9167
27.902	7.8388
27.475	7.7609
27.048	7.6830
26.621	7.6051
26.194	7.5273
25.767	7.4494
25.340	7.3715
24.913	7.2936
24.486	7.2157
24.059	7.1379
23.632	7.0600
23.205	6.9822
22.778	6.9043
22.351	6.8265
21.924	6.7486
21.497	6.6708
21.070	6.5929
20.643	6.5151
20.216	6.4372
19.789	6.3594
19.362	6.2815
18.935	6.2037
18.508	6.1258
18.081	6.0480
17.654	5.9701
17.227	5.8923
16.800	5.8144
16.373	5.7366
15.946	5.6587
15.519	5.5809
15.092	5.5030
14.665	5.4252
14.238	5.3473
13.811	5.2695
13.384	5.1916
12.957	5.1138
12.531	5.0359
12.104	4.9581
11.677	4.8802
11.250	4.8024
10.823	4.7245
10.396	4.6467
9.9686	4.5688
9.5416	4.4910
9.1147	4.4131
8.6879	4.3353
8.2612	4.2574
7.8345	4.1796
7.4078	4.1018
6.9810	4.0239
6.5543	3.9461
6.1276	3.8682
5.7009	3.7904
5.2742	3.7126
4.8474	3.6347
4.4207	3.5569
3.9940	3.4790
3.5673	3.4012
3.1406	3.3234
2.7138	3.2455
2.2871	3.1677
1.8604	3.0898
1.4337	3.0120
1.0070	2.9342
0.58025	2.8563
0.15353	2.7785
-0.27319	2.7006
-0.69991	2.6228
-1.1266	2.5450
-1.5533	2.4671
-1.9801	2.3893
-2.4068	2.3114
-2.8335	2.2336
-3.2602	2.1558
-3.6869	2.0779
-4.1137	2.0001
-4.5404	1.9222
-4.9671	1.8444
-5.3803	1.7666
-5.7888	1.6887
-6.1974	1.6109
-6.6059	1.5331
-7.0144	1.4552
-7.4230	1.3774
-7.8315	1.2995
-8.2400	1.2217
-8.6486	1.1439
-9.0571	1.0660
-9.4657	0.98817
-9.8742	0.91033
-10.283	0.83249
-10.691	0.75465
-11.100	0.67681
-11.508	0.59878
-11.917	0.52011
-12.325	0.44144
-12.734	0.36276
-13.142	0.28409
-13.551	0.20619
-13.960	0.12833
-14.368	0.050474
-14.777	-0.027386
-15.185	-0.10525
-15.594	-0.18311
-16.002	-0.26097
-16.411	-0.33883
-16.819	-0.41669
-17.228	-0.49455
-17.636	-0.57241
-18.045	-0.65027
-18.453	-0.72813
-18.862	-0.80599
-19.271	-0.88385
-19.679	-0.96171
-20.088	-1.0396
-20.496	-1.1174
-20.905	-1.1953
-21.313	-1.2731
-21.722	-1.3510
-22.130	-1.4289
-22.539	-1.5067
-22.947	-1.5846
-23.356	-1.6624
-23.764	-1.7403
-24.173	-1.8182
-24.582	-1.8960
-24.990	-1.9739
-25.399	-2.0518
-25.807	-2.1296
-26.216	-2.2075
-26.624	-2.2853
-27.033	-2.3632
-27.441	-2.4411
-27.850	-2.5189
-28.258	-2.5968
-28.667	-2.6747
-29.075	-2.7525
-29.484	-2.8304
-29.892	-2.9083
-30.301	-2.9861
-30.710	-3.0640
-31.118	-3.1419
-31.527	-3.2198
-31.935	-3.2976
-32.344	-3.3755
-32.752	-3.4534
-33.161	-3.5312
-33.580	-3.6091
-34.004	-3.6870
-34.427	-3.7648
-34.850	-3.8427
-35.274	-3.9206
-35.697	-3.9985
-36.120	-4.0763
-36.543	-4.1542
-36.967	-4.2321
-37.390	-4.3099
-37.813	-4.3878
-38.237	-4.4657
-38.660	-4.5436
-39.083	-4.6214
-39.507	-4.6993
-39.930	-4.7772
-40.353	-4.8550
-40.777	-4.9329
-41.200	-5.0107
-41.623	-5.0886
-42.047	-5.1665
-42.470	-5.2443
-42.893	-5.3222
-43.316	-5.4000
-43.740	-5.4779
-44.201	-5.5558
-44.686	-5.6336
-45.172	-5.7115
-45.658	-5.7894
-46.144	-5.8672
-46.630	-5.9451
-47.116	-6.0229
-47.602	-6.1008
-48.088	-6.1787
-48.574	-6.2565
-49.060	-6.3344
-49.545	-6.4123
-50.031	-6.4901
-50.315	-6.5680
-50.534	-6.6458
-50.767	-6.7237
-51.152	-6.8016
-51.537	-6.8794
-51.922	-6.9573
-52.307	-7.0351
-52.692	-7.1130
-53.077	-7.1909
-53.461	-7.2687
-53.846	-7.3466
-54.231	-7.4245
-54.616	-7.5023
-55.001	-7.5802
-55.386	-7.6580
-55.771	-7.7359
-56.156	-7.8138
-56.541	-7.8916
-56.925	-7.9695
-57.310	-8.0474
-57.695	-8.1252
-58.080	-8.2031
-58.465	-8.2809
-58.850	-8.3588
-59.245	-8.4367
-59.694	-8.5145
-60.144	-8.5924
-60.594	-8.6703
-61.044	-8.7483
-61.493	-8.8262
-61.943	-8.9041
-62.393	-8.9820
-62.843	-9.0599
-63.292	-9.1378
-63.742	-9.2158
-64.192	-9.2937
-64.642	-9.3716
-65.091	-9.4495
-65.541	-9.5274
-65.991	-9.6054
-66.440	-9.6833
-66.890	-9.7612
-67.340	-9.8391
-67.790	-9.9170
-68.239	-9.9950
-68.689	-10.073
-69.139	-10.151
-69.589	-10.229
-70.038	-10.307
-70.488	-10.385
-70.938	-10.462
-71.388	-10.540
-71.837	-10.618
-72.287	-10.696
-72.737	-10.774
-73.186	-10.852
-73.636	-10.930
-74.086	-11.008
-74.536	-11.086
-74.985	-11.164
-75.464	-11.242
-75.948	-11.320
-76.432	-11.397
-76.916	-11.475
-77.400	-11.553
-77.884	-11.631
-78.368	-11.709
-78.852	-11.787
-79.336	-11.865
-79.823	-11.943
-80.310	-12.021
-80.797	-12.099
-81.284	-12.177
-81.772	-12.255
-82.259	-12.333
-82.746	-12.410
-83.233	-12.488
-83.720	-12.566
-84.208	-12.644
-84.695	-12.722
-85.182	-12.800
-85.669	-12.878
-86.156	-12.955
-86.644	-13.033
-87.131	-13.111
-87.618	-13.189
-88.105	-13.267
-88.592	-13.345
-89.080	-13.423
-89.567	-13.500
-90.054	-13.578
-90.541	-13.656
-91.054	-13.734
-91.655	-13.812
-92.257	-13.890
-92.858	-13.968
-93.460	-14.046
-94.061	-14.123
-94.663	-14.201
-95.264	-14.279
-95.866	-14.357
-96.467	-14.435
-97.068	-14.513
-97.670	-14.591
-98.271	-14.668
-98.873	-14.746
-99.474	-14.824
-100.08	-14.902
-100.68	-14.980
-101.28	-15.058
-101.88	-15.136
-102.48	-15.213
-103.08	-15.291
-103.67	-15.369
-104.25	-15.447
-104.83	-15.524
-105.41	-15.602
-105.99	-15.680
-106.57	-15.757
-107.15	-15.835
-107.73	-15.913
-108.31	-15.990
-108.89	-16.068
-109.47	-16.146
-110.05	-16.224
-110.63	-16.301
-111.21	-16.379
-111.79	-16.457
-112.37	-16.535
-112.95	-16.613
-113.53	-16.691
-114.11	-16.768
-114.69	-16.846
-115.27	-16.924
-115.85	-17.002
-116.46	-17.080
-117.07	-17.158
-117.68	-17.235
-118.28	-17.313
-118.89	-17.391
-119.50	-17.469
-120.11	-17.547
-120.72	-17.624
-121.33	-17.702
-121.94	-17.780
-122.55	-17.858
-123.19	-17.936
-123.82	-18.014
-124.45	-18.091
-125.08	-18.169
-125.72	-18.247
-126.35	-18.325
-126.98	-18.403
-127.62	-18.481
-128.25	-18.558
-128.88	-18.636
-129.52	-18.714
-130.15	-18.792
-130.78	-18.870
-131.42	-18.948
-132.00	-19.025
-132.58	-19.103
-133.15	-19.181
-133.72	-19.259
-134.30	-19.337
-134.87	-19.415
-135.45	-19.492
-136.02	-19.570
-136.60	-19.648
-137.17	-19.726
-137.75	-19.804
-138.32	-19.882
-138.90	-19.959
-139.47	-20.037
-140.04	-20.115
-140.62	-20.193
-141.52	-20.271
-142.52	-20.349
-143.52	-20.426
-144.51	-20.504
-145.51	-20.582
-146.36	-20.660
-147.20	-20.738
-148.04	-20.816
-148.88	-20.893
-149.72	-20.971
-150.56	-21.049
-151.40	-21.127
-152.25	-21.205
-153.09	-21.283
-153.93	-21.361
-154.77	-21.438
-155.61	-21.516
-156.45	-21.594
-157.77	-21.672
-159.43	-21.750
-161.09	-21.828
-162.76	-21.906
-164.42	-21.983
-166.45	-22.061
-169.70	-22.139
-172.94	-22.217
-176.19	-22.295
-179.33	-22.373
-182.36	-22.451
-185.39	-22.528
-188.41	-22.606
-191.44	-22.684
-194.47	-22.762
-197.50	-22.840
-200.53	-22.918
-203.56	-22.996
-206.98	-23.073
-211.02	-23.151
-218.62	-23.229
-229.49	-23.307
-243.71	-23.384
-256.33	-23.462
-271.83	-23.539
-282.82	-23.616
-293.81	-23.693
-303.00	-23.770
-316.04	-23.847
-332.60	-23.925
-361.00	-24.002
-386.96	-24.079
-412.05	-24.156
-440.69	-24.233
-468.23	-24.310
-489.26	-24.388
-493.48	-24.431
-469.29	-24.345
-383.00	-24.273
-332.64	-24.202
